"oak_id","raw_source","patient_number","SUBJID","SEX","AGE","AGEU","RFENDTC","RFSTDTC","STUDYID","DOMAIN","USUBJID"
1,"raw_dm",101,"101","M",55,"YEAR","2022-06-30","2022-01-10","STUDY001","DM","STUDY001-101"
2,"raw_dm",102,"102","F",62,"YEAR","2022-06-28","2022-01-12","STUDY001","DM","STUDY001-102"
3,"raw_dm",103,"103","M",48,"YEAR","2022-06-29","2022-01-15","STUDY001","DM","STUDY001-103"
4,"raw_dm",104,"104","F",59,"YEAR","2022-06-27","2022-01-18","STUDY001","DM","STUDY001-104"
